Folder: XRDAnalysis/Input XRD

File: 2_Ti35.csv
Angle,Intensity
10.0042,17
10.4721,26
10.94,16
11.4079,17
11.8758,21
12.3438,16
12.8117,29
13.2796,22
13.7475,17
14.2154,18
14.6833,27
15.1512,20
15.6192,23
16.0871,18
16.555,27
17.0229,17
17.4908,31
17.9587,26
18.4267,33
18.8946,24
19.3625,26
19.8304,31
20.2983,24
20.7662,17
21.2342,9
21.7021,21
22.17,29
22.6379,18
23.1058,21
23.5737,17
24.0416,13
24.5096,18
24.9775,14
25.4454,20
25.9133,11
26.3812,14
26.8491,11
27.3171,16
27.785,16
28.2529,10
28.7208,20
29.1887,20
29.6566,15
30.1245,16
30.5925,16
31.0604,9
31.5283,16
31.9962,18
32.4641,7
32.932,22
33.4,15
33.8679,15
34.3358,15
34.8037,9
35.2716,73
35.7395,18
36.2074,15
36.6754,16
37.1433,14
37.6112,9
38.0791,18
38.547,16
39.0149,24
39.4829,29
39.9508,26
40.4187,33
40.8866,11
41.3545,11
41.8224,9
42.2903,7
42.7583,7
43.2262,13
43.6941,11
44.162,11
44.6299,10
45.0978,11
45.5658,11
46.0337,10
46.5016,20
46.9695,14
47.4374,8
47.9053,7
48.3733,13
48.8412,17
49.3091,5
49.777,11
50.2449,14
50.7128,10
51.1807,14
51.6487,7
52.1166,8
52.5845,10
53.0524,91
53.5203,9
53.9882,9
54.4562,11
54.9241,15
55.392,10
55.8599,9
56.3278,8
56.7957,7
57.2636,4
57.7316,13
58.1995,10
58.6674,7
59.1353,9
59.6032,13
60.0711,10
60.5391,8
61.007,10
61.4749,7
61.9428,11
62.4107,9
62.8786,10
63.3465,10
63.8145,1
64.2824,11
64.7503,9
65.2182,11
65.6861,10
66.154,14
66.622,13
67.0899,15
67.5578,15
68.0257,14
68.4936,9
68.9615,14
69.4295,10
69.8974,8
70.3653,14
70.8332,62
71.3011,10
71.769,7
72.2369,11
72.7049,18
73.1728,4
73.6407,10
74.1086,16
74.5765,13
75.0444,18
75.5124,9
75.9803,16
76.4482,157
76.9161,22
77.384,15
77.8519,33
78.3198,15
78.7878,4
79.2557,16
79.7236,20
80.1915,8
80.6594,9
81.1273,10
81.5953,16
82.0632,17
82.5311,11
82.999,13
83.4669,8
83.9348,10
84.4027,8
84.8707,9
85.3386,10
85.8065,13
86.2744,14
86.7423,7
87.2102,10
87.6782,11
88.1461,15
88.614,17
89.0819,8
89.5498,9
90.0177,16
90.4856,9
90.9536,9
91.4215,8
91.8894,8
92.3573,8
92.8252,28
93.2931,11
93.7611,20
94.229,14
94.6969,10
95.1648,13
95.6327,8
96.1006,11
96.5686,8
97.0365,4
97.5044,15
97.9723,14
98.4402,7
98.9081,14
99.376,4
99.844,14
100.312,4
100.78,15
101.248,11
101.716,8
102.184,4
102.651,9
103.119,17
103.587,15
104.055,15
104.523,8
104.991,13
105.459,8
105.927,9
106.395,9
106.863,11
107.331,8
107.799,13
108.266,11
108.734,17
109.202,9
109.67,30
110.138,18
110.606,9
111.074,8
111.542,13
112.01,14
112.478,17
112.946,11
113.414,10
113.881,8
114.349,10
114.817,9
115.285,7
115.753,10
116.221,8
116.689,16
117.157,10
117.625,16
118.093,13
118.561,16
119.028,13
119.496,5
119.964,13
120.432,10
120.9,9
121.368,8
121.836,10
122.304,45
122.772,22
123.24,16
123.708,17
124.176,13
124.643,16
125.111,16
125.579,9
126.047,10
126.515,9
126.983,17
127.451,16
127.919,10
128.387,9
128.855,8
129.323,9
129.791,18
130.258,21
130.726,16
131.194,16
131.662,17
132.13,14
132.598,13
133.066,15
133.534,15
134.002,5
134.47,14
134.938,13
135.406,15
135.873,15
136.341,21
136.809,4
137.277,10
137.745,14
138.213,10
138.681,15
139.149,8
139.617,15
140.085,45
140.553,40
141.021,28
141.488,18
141.956,10
142.424,16
142.892,16
143.36,20
143.828,16
144.296,21
144.764,18
145.232,23
145.7,17
146.168,10
146.636,15
147.103,21
147.571,14
148.039,17
148.507,10
148.975,17
149.443,18
149.911,13
150.003,14

File: 3_Ti666.csv
Angle,Intensity
10.0021,86
10.47,70
10.9379,78
11.4058,68
11.8738,66
12.3417,67
12.8096,77
13.2775,65
13.7454,73
14.2133,72
14.6812,78
15.1492,73
15.6171,61
16.085,80
16.5529,56
17.0208,65
17.4887,65
17.9567,67
18.4246,55
18.8925,65
19.3604,42
19.8283,57
20.2962,53
20.7641,51
21.2321,43
21.7,48
22.1679,37
22.6358,57
23.1037,52
23.5716,50
24.0396,57
24.5075,57
24.9754,48
25.4433,57
25.9112,39
26.3791,54
26.847,36
27.315,48
27.7829,42
28.2508,44
28.7187,55
29.1866,49
29.6545,45
30.1225,49
30.5904,45
31.0583,46
31.5262,55
31.9941,38
32.462,44
32.9299,57
33.3979,33
33.8658,40
34.3337,53
34.8016,73
35.2695,75
35.7374,63
36.2054,39
36.6733,36
37.1412,45
37.6091,52
38.077,52
38.5449,51
39.0129,61
39.4808,55
39.9487,792
40.4166,91
40.8845,102
41.3524,68
41.8203,53
42.2883,42
42.7562,46
43.2241,51
43.692,45
44.1599,42
44.6278,49
45.0958,51
45.5637,43
46.0316,55
46.4995,28
46.9674,38
47.4353,45
47.9032,40
48.3712,43
48.8391,43
49.307,32
49.7749,44
50.2428,40
50.7107,39
51.1787,42
51.6466,36
52.1145,48
52.5824,43
53.0503,53
53.5182,32
53.9861,48
54.4541,40
54.922,37
55.3899,49
55.8578,44
56.3257,42
56.7936,48
57.2616,45
57.7295,44
58.1974,29
58.6653,50
59.1332,40
59.6011,42
60.0691,44
60.537,34
61.0049,44
61.4728,38
61.9407,32
62.4086,53
62.8765,65
63.3445,36
63.8124,44
64.2803,36
64.7482,40
65.2161,37
65.684,49
66.152,45
66.6199,51
67.0878,38
67.5557,46
68.0236,42
68.4915,44
68.9594,34
69.4274,38
69.8953,56
70.3632,52
70.8311,50
71.299,31
71.7669,67
72.2349,37
72.7028,40
73.1707,39
73.6386,45
74.1065,44
74.5744,48
75.0423,34
75.5103,39
75.9782,148
76.4461,51
76.914,115
77.3819,412
77.8498,56
78.3178,31
78.7857,48
79.2536,45
79.7215,42
80.1894,45
80.6573,52
81.1252,48
81.5932,45
82.0611,41
82.529,42
82.9969,40
83.4648,41
83.9327,43
84.4007,48
84.8686,28
85.3365,46
85.8044,32
86.2723,44
86.7402,53
87.2082,44
87.6761,44
88.144,48
88.6119,41
89.0798,33
89.5477,40
90.0156,43
90.4836,24
90.9515,34
91.4194,52
91.8873,33
92.3552,44
92.8231,41
93.2911,46
93.759,43
94.2269,50
94.6948,30
95.1627,49
95.6306,39
96.0985,40
96.5665,40
97.0344,48
97.5023,36
97.9702,41
98.4381,53
98.906,34
99.374,44
99.8419,58
100.31,46
100.778,41
101.246,41
101.714,50
102.181,86
102.649,49
103.117,62
103.585,40
104.053,28
104.521,39
104.989,30
105.457,56
105.925,50
106.393,45
106.861,48
107.329,37
107.796,52
108.264,43
108.732,64
109.2,49
109.668,31
110.136,32
110.604,52
111.072,39
111.54,38
112.008,31
112.476,36
112.944,36
113.411,41
113.879,42
114.347,41
114.815,42
115.283,48
115.751,32
116.219,57
116.687,36
117.155,45
117.623,45
118.091,51
118.558,37
119.026,69
119.494,66
119.962,44
120.43,54
120.898,39
121.366,43
121.834,55
122.302,53
122.77,32
123.238,52
123.706,48
124.173,49
124.641,49
125.109,56
125.577,38
126.045,55
126.513,51
126.981,45
127.449,49
127.917,45
128.385,40
128.853,52
129.321,41
129.788,54
130.256,33
130.724,44
131.192,48
131.66,52
132.128,32
132.596,55
133.064,34
133.532,42
134,38
134.468,39
134.936,33
135.403,52
135.871,55
136.339,49
136.807,48
137.275,37
137.743,42
138.211,50
138.679,120
139.147,93
139.615,91
140.083,68
140.551,42
141.018,33
141.486,46
141.954,53
142.422,53
142.89,34
143.358,46
143.826,54
144.294,43
144.762,51
145.23,45
145.698,50
146.166,51
146.633,48
147.101,69
147.569,184
148.037,247
148.505,133
148.973,180
149.441,85
149.909,55
150.005,52

File: 4_TC11-C.csv
Angle,Intensity
10.0021,88
10.47,103
10.9379,85
11.4058,82
11.8738,72
12.3417,89
12.8096,82
13.2775,63
13.7454,66
14.2133,97
14.6812,85
15.1492,88
15.6171,84
16.085,100
16.5529,77
17.0208,86
17.4887,78
17.9567,99
18.4246,90
18.8925,82
19.3604,93
19.8283,99
20.2962,79
20.7641,96
21.2321,79
21.7,97
22.1679,93
22.6358,77
23.1037,87
23.5716,70
24.0396,78
24.5075,60
24.9754,75
25.4433,55
25.9112,66
26.3791,65
26.847,72
27.315,49
27.7829,63
28.2508,53
28.7187,58
29.1866,55
29.6545,43
30.1225,42
30.5904,61
31.0583,44
31.5262,67
31.9941,46
32.462,52
32.9299,49
33.3979,63
33.8658,56
34.3337,62
34.8016,180
35.2695,102
35.7374,62
36.2054,73
36.6733,61
37.1412,52
37.6091,54
38.077,66
38.5449,48
39.0129,78
39.4808,61
39.9487,124
40.4166,50
40.8845,63
41.3524,33
41.8203,49
42.2883,63
42.7562,55
43.2241,50
43.692,41
44.1599,49
44.6278,61
45.0958,54
45.5637,52
46.0316,45
46.4995,45
46.9674,48
47.4353,45
47.9032,60
48.3712,41
48.8391,43
49.307,49
49.7749,57
50.2428,44
50.7107,51
51.1787,54
51.6466,38
52.1145,53
52.5824,93
53.0503,407
53.5182,32
53.9861,50
54.4541,56
54.922,40
55.3899,45
55.8578,37
56.3257,34
56.7936,43
57.2616,46
57.7295,52
58.1974,55
58.6653,41
59.1332,30
59.6011,45
60.0691,45
60.537,43
61.0049,54
61.4728,60
61.9407,52
62.4086,49
62.8765,50
63.3445,50
63.8124,25
64.2803,44
64.7482,41
65.2161,37
65.684,39
66.152,39
66.6199,32
67.0878,36
67.5557,48
68.0236,50
68.4915,44
68.9594,53
69.4274,67
69.8953,97
70.3632,711
70.8311,213
71.299,65
71.7669,55
72.2349,46
72.7028,39
73.1707,52
73.6386,53
74.1065,69
74.5744,81
75.0423,61
75.5103,66
75.9782,158
76.4461,225
76.914,66
77.3819,204
77.8498,66
78.3178,51
78.7857,39
79.2536,42
79.7215,43
80.1894,49
80.6573,31
81.1252,36
81.5932,26
82.0611,43
82.529,48
82.9969,43
83.4648,51
83.9327,38
84.4007,39
84.8686,37
85.3365,38
85.8044,53
86.2723,43
86.7402,37
87.2082,44
87.6761,52
88.144,54
88.6119,44
89.0798,39
89.5477,30
90.0156,43
90.4836,40
90.9515,45
91.4194,46
91.8873,55
92.3552,182
92.8231,117
93.2911,49
93.759,50
94.2269,42
94.6948,37
95.1627,32
95.6306,38
96.0985,36
96.5665,33
97.0344,48
97.5023,48
97.9702,55
98.4381,43
98.906,43
99.374,44
99.8419,42
100.31,43
100.778,54
101.246,43
101.714,34
102.181,53
102.649,40
103.117,42
103.585,48
104.053,42
104.521,40
104.989,46
105.457,45
105.925,44
106.393,55
106.861,53
107.329,50
107.796,50
108.264,56
108.732,63
109.2,84
109.668,100
110.136,57
110.604,68
111.072,46
111.54,43
112.008,48
112.476,48
112.944,38
113.411,40
113.879,49
114.347,58
114.815,43
115.283,50
115.751,50
116.219,31
116.687,48
117.155,54
117.623,56
118.091,56
118.558,40
119.026,57
119.494,82
119.962,69
120.43,58
120.898,37
121.366,50
121.834,69
122.302,61
122.77,43
123.238,55
123.706,53
124.173,51
124.641,45
125.109,61
125.577,50
126.045,67
126.513,49
126.981,61
127.449,45
127.917,56
128.385,51
128.853,45
129.321,55
129.788,76
130.256,104
130.724,75
131.192,57
131.66,56
132.128,41
132.596,45
133.064,42
133.532,41
134,55
134.468,42
134.936,39
135.403,40
135.871,53
136.339,61
136.807,45
137.275,48
137.743,61
138.211,58
138.679,55
139.147,70
139.615,114
140.083,97
140.551,96
141.018,80
141.486,54
141.954,57
142.422,48
142.89,37
143.358,33
143.826,49
144.294,57
144.762,48
145.23,61
145.698,53
146.166,46
146.633,55
147.101,48
147.569,44
148.037,64
148.505,62
148.973,65
149.441,68
149.909,61
150.005,57